Folder: 5physmethods/thermodynamics/5capacity

File: ExpDat_00089_CaC2O4_5_30-300_Al2O3-lids_Air-30-10_TGA.txt
#EXPORTTYPE:DATA ALL
#FILE:ExpDat_00094_CaC2O4_5_1000_Al2O3-lids_Air-30-10_TGA.imp
#FORMAT:NETZSCH5
#FTYPE:ASCII
#IDENTITY:ExpDat_00094_CaC2O4_5_1000_Al2O
#DECIMAL:POINT
#SEPARATOR:SEMICOLON
#MTYPE:TG
#INSTRUMENT:IMPORTED TG
#PROJECT:
#DATE/TIME:30.09.2008 10:08
#CORR. FILE:
#TEMPCAL:---
#LABORATORY:
#OPERATOR:
#REMARK:
#SAMPLE:
#SAMPLE MASS /mg:18.516
#MATERIAL:
#REFERENCE:
#REFERENCE MASS /mg:
#TYPE OF CRUCIBLE:
#SAMPLE CRUCIBLE MASS /mg:0.000
#REFERENCE CRUCIBLE MASS /mg:
#PROTECTIVE GAS:
#FLOW RATE:
#PURGE GAS 1:
#FLOW RATE 1:
#PURGE GAS 2:
#FLOW RATE 2:
#M.RANGE /mg:0
#CORR. CODE:600
#RANGE:30oC/5.0(K/min)/1000oC
#SEGMENT:S1/1
#SEG. 1:30oC/5.0(K/min)/1000oC

##Temp./oC;Time/min;Mass/%;DTG/(%/min)
 30.09999; 0.00000;100; 6.1895e-002
 31.59999; 0.30003;100.005;-1.4980e-002
 33.09999; 0.60006;100.001;-1.3154e-002
 34.59999; 0.90009; 99.99670;-1.7819e-002
 36.09999; 1.20012; 99.99048;-2.2269e-002
 37.59999; 1.50015; 99.98460;-1.4795e-002
 39.09999; 1.80019; 99.98208;-2.6045e-003
 40.59999; 2.10022; 99.98162;-4.3076e-003
 42.09999; 2.40025; 99.97797;-2.0517e-002
 43.59999; 2.70028; 99.97015;-2.9317e-002
 45.09999; 3.00031; 99.96124;-2.9121e-002
 46.59999; 3.30034; 99.95337;-2.1945e-002
 48.09999; 3.60037; 99.94834;-1.2122e-002
 49.59999; 3.90040; 99.94548;-7.5317e-003
 51.09999; 4.20043; 99.94373;-4.6474e-003
 52.59999; 4.50046; 99.94206;-7.5009e-003
 54.09999; 4.80050; 99.93942;-9.0021e-003
 55.59999; 5.10053; 99.93667;-1.1035e-002
 57.09999; 5.40056; 99.93204;-1.8983e-002
 58.59999; 5.70059; 99.92688;-1.1445e-002
 60.09999; 6.00062; 99.92598; 3.7579e-003
 61.59999; 6.30065; 99.92741; 2.8242e-003
 63.09999; 6.60068; 99.92736;-1.9856e-003
 64.59999; 6.90071; 99.92698; 7.9683e-005
 66.09999; 7.20074; 99.92726; 5.4750e-004
 67.59999; 7.50077; 99.92598;-1.2214e-002
 69.09999; 7.80080; 99.91897;-3.3337e-002
 70.59999; 8.10084; 99.90809;-3.4045e-002
 72.09999; 8.40087; 99.90007;-1.9535e-002
 73.59999; 8.70090; 99.89546;-1.3089e-002
 75.09999; 9.00093; 99.89205;-8.7394e-003
 76.59999; 9.30096; 99.89110; 4.4100e-003
 78.09999; 9.60099; 99.89489; 1.8638e-002
 79.59999; 9.90102; 99.89987; 9.0551e-003
 81.09999;10.20105; 99.89884;-1.4761e-002
 82.59999;10.50108; 99.89329;-1.7084e-002
 84.09999;10.80111; 99.88999;-5.7538e-003
 85.59999;11.10114; 99.88838;-8.0617e-003
 87.09999;11.40118; 99.88438;-1.7723e-002
 88.59999;11.70121; 99.87919;-1.3384e-002
 90.09999;12.00124; 99.87743; 6.8206e-004
 91.59999;12.30127; 99.87787;-1.4851e-003
 93.09999;12.60130; 99.87572;-1.2058e-002
 94.59999;12.90133; 99.87153;-1.4637e-002
 96.09999;13.20136; 99.86706;-1.5137e-002
 97.59999;13.50139; 99.86280;-1.2198e-002
 99.09999;13.80142; 99.85999;-7.3246e-003
100.6;14.10145; 99.85739;-1.2053e-002
102.1;14.40148; 99.85245;-1.9699e-002
103.6;14.70152; 99.84657;-1.7885e-002
105.1;15.00155; 99.84199;-1.2548e-002
106.6;15.30158; 99.83917;-6.1199e-003
108.1;15.60161; 99.83813;-1.8950e-003
109.6;15.90164; 99.83738;-4.6817e-003
111.1;16.20167; 99.83435;-1.6956e-002
112.6;16.50170; 99.82738;-2.6932e-002
114.1;16.80173; 99.81998;-2.0053e-002
115.6;17.10176; 99.81517;-1.4441e-002
117.1;17.40179; 99.81012;-2.0673e-002
118.6;17.70183; 99.80257;-2.9206e-002
120.1;18.00186; 99.79342;-2.9174e-002
121.6;18.30189; 99.78613;-1.9320e-002
123.1;18.60192; 99.78063;-2.0761e-002
124.6;18.90195; 99.77262;-3.2474e-002
126.1;19.20198; 99.76185;-3.7704e-002
127.6;19.50201; 99.75050;-3.7549e-002
129.1;19.80204; 99.73931;-3.7606e-002
130.6;20.10207; 99.72752;-4.1612e-002
132.1;20.40210; 99.71422;-4.7142e-002
133.6;20.70214; 99.69911;-5.3978e-002
135.1;21.00217; 99.68180;-6.1061e-002
136.6;21.30220; 99.66236;-6.9695e-002
138.1;21.60223; 99.63921;-8.5133e-002
139.6;21.90226; 99.61208;-9.2703e-002
141.1;22.20229; 99.58483;-8.8421e-002
142.6;22.50232; 99.55841;-8.9527e-002
144.1;22.80235; 99.53047;-9.7884e-002
145.6;23.10238; 99.49879;    -0.11526
147.1;23.40241; 99.46077;    -0.13754
148.6;23.70244; 99.41710;    -0.15226
150.1;24.00247; 99.36938;    -0.16673
151.6;24.30250; 99.31675;    -0.18413
153.1;24.60254; 99.25885;    -0.20250
154.6;24.90257; 99.19467;    -0.22626
156.1;25.20260; 99.12292;    -0.25207
157.6;25.50263; 99.04331;    -0.27866
159.1;25.80266; 98.95593;    -0.30291
160.6;26.10269; 98.86189;    -0.32383
162.1;26.40272; 98.76142;    -0.34676
163.6;26.70275; 98.65310;    -0.37692
165.1;27.00278; 98.53451;    -0.41478
166.6;27.30281; 98.40373;    -0.45750
168.1;27.60285; 98.26011;    -0.49899
169.6;27.90288; 98.10446;    -0.53970
171.1;28.20291; 97.93522;    -0.58955
172.6;28.50294; 97.75142;    -0.63250
174.1;28.80297; 97.55663;    -0.66758
175.6;29.10300; 97.34847;    -0.72456
177.1;29.40303; 97.12133;    -0.78760
178.6;29.70306; 96.87689;    -0.84212
180.1;30.00309; 96.61559;    -0.89909
181.6;30.30312; 96.33781;    -0.95369
183.1;30.60316; 96.04184;    -1.02168
184.6;30.90319; 95.72504;    -1.08851
186.1;31.20322; 95.38745;    -1.16771
187.6;31.50325; 95.02239;    -1.26484
189.1;31.80328; 94.63057;    -1.34406
190.6;32.10331; 94.21541;    -1.42659
192.1;32.40334; 93.77405;    -1.51333
193.6;32.70337; 93.30929;    -1.58118
195.1;33.00340; 92.82574;    -1.64510
196.6;33.30343; 92.31941;    -1.73633
198.1;33.60346; 91.78251;    -1.83994
199.6;33.90350; 91.21835;    -1.91267
201.1;34.20353; 90.63919;    -1.94151
202.6;34.50356; 90.05609;    -1.94230
204.1;34.80359; 89.47638;    -1.91224
205.6;35.10362; 88.91716;    -1.79193
207.1;35.40365; 88.41701;    -1.50586
208.6;35.70368; 88.03099;    -1.04334
210.1;36.00371; 87.79264;    -0.56353
211.6;36.30374; 87.67630;    -0.25067
213.1;36.60377; 87.62537;    -0.11391
214.6;36.90381; 87.59984;-6.5105e-002
216.1;37.20384; 87.58397;-4.3216e-002
217.6;37.50387; 87.57296;-3.1540e-002
219.1;37.80390; 87.56504;-2.0114e-002
220.6;38.10393; 87.56118;-6.0654e-003
222.1;38.40396; 87.56078; 1.4510e-003
223.6;38.70399; 87.56076;-4.2970e-003
225.1;39.00402; 87.55744;-1.7081e-002
226.6;39.30405; 87.55173;-1.8272e-002
228.1;39.60408; 87.54742;-1.0060e-002
229.6;39.90412; 87.54517;-6.8883e-003
231.1;40.20415; 87.54257;-1.0491e-002
232.6;40.50418; 87.53941;-9.5804e-003
234.1;40.80421; 87.53706;-5.9170e-003
235.6;41.10424; 87.53627; 1.9941e-003
237.1;41.40427; 87.53841; 1.0778e-002
238.6;41.70430; 87.54121; 4.8805e-003
240.1;42.00433; 87.54071;-7.4412e-003
241.6;42.30436; 87.53785;-9.1978e-003
243.1;42.60439; 87.53605;-2.2120e-003
244.6;42.90442; 87.53652; 4.9967e-003
246.1;43.20446; 87.53880; 9.1290e-003
247.6;43.50449; 87.54083; 1.8032e-003
249.1;43.80452; 87.53921;-1.1934e-002
250.6;44.10455; 87.53489;-1.3700e-002
252.1;44.40458; 87.53228;-2.5968e-003
253.6;44.70461; 87.53300; 5.2298e-003
255.1;45.00464; 87.53435; 2.4853e-003
256.6;45.30467; 87.53440;-1.7212e-003
258.1;45.60470; 87.53350;-4.3761e-003
259.6;45.90473; 87.53123;-1.2451e-002
261.1;46.20476; 87.52574;-2.2614e-002
262.6;46.50479; 87.51936;-1.6125e-002
264.1;46.80482; 87.51716; 1.0739e-003
265.6;47.10485; 87.51898; 8.8613e-003
267.1;47.40489; 87.52205; 1.2075e-002
268.6;47.70492; 87.52622; 1.4002e-002
270.1;48.00495; 87.52909; 3.0802e-003
271.6;48.30498; 87.52837;-5.1445e-003
273.1;48.60501; 87.52718;-2.3532e-003
274.6;48.90504; 87.52612;-6.8802e-003
276.1;49.20507; 87.52278;-1.4110e-002
277.6;49.50510; 87.51889;-9.6138e-003
279.1;49.80513; 87.51730;-2.3861e-003
280.6;50.10516; 87.51647;-4.2123e-003
282.1;50.40520; 87.51512;-2.9743e-003
283.6;50.70523; 87.51537; 4.7228e-003
285.1;51.00526; 87.51711; 3.7491e-003
286.6;51.30529; 87.51620;-1.0757e-002
288.1;51.60532; 87.51177;-1.4465e-002
289.6;51.90535; 87.50943; 1.3000e-004
291.1;52.20538; 87.51091; 6.3307e-003
292.6;52.50541; 87.51163;-3.7178e-003
294.1;52.80544; 87.50842;-1.6136e-002
295.6;53.10547; 87.50358;-1.2403e-002
297.1;53.40551; 87.50214; 2.6258e-003
298.6;53.70554; 87.50408; 7.2062e-003
299.6;53.90556; 87.50506; 1.4928e-003

File: ExpDat_00089_CaC2O4_10_30-300_Al2O3-lids_Air-30-10_TGA.txt
#EXPORTTYPE:DATA ALL
#FILE:ExpDat_00090_CaC2O4_10_1000_Al2O3-lids_Air-30-10_TGA.imp
#FORMAT:NETZSCH5
#FTYPE:ASCII
#IDENTITY:ExpDat_00090_CaC2O4_10_1000_Al2
#DECIMAL:POINT
#SEPARATOR:SEMICOLON
#MTYPE:TG
#INSTRUMENT:IMPORTED TG
#PROJECT:
#DATE/TIME:26.09.2008 09:56
#CORR. FILE:
#TEMPCAL:---
#LABORATORY:
#OPERATOR:
#REMARK:
#SAMPLE:
#SAMPLE MASS /mg:19.604
#MATERIAL:
#REFERENCE:
#REFERENCE MASS /mg:
#TYPE OF CRUCIBLE:
#SAMPLE CRUCIBLE MASS /mg:0.000
#REFERENCE CRUCIBLE MASS /mg:
#PROTECTIVE GAS:
#FLOW RATE:
#PURGE GAS 1:
#FLOW RATE 1:
#PURGE GAS 2:
#FLOW RATE 2:
#M.RANGE /mg:0
#CORR. CODE:600
#RANGE:30oC/10.0(K/min)/1000oC
#SEGMENT:S1/1
#SEG. 1:30oC/10.0(K/min)/1000oC

##Temp./oC;Time/min;Mass/%;DTG/(%/min)
 30.22167; 0.10300;100;-2.9217e-013
 31.72167; 1.58818;100.014; 1.6862e-002
 33.22167; 2.01715;100.03; 3.5278e-002
 34.72167; 2.34124;100.03;-2.1643e-002
 36.22167; 2.61220;100.025; 7.9617e-004
 37.72167; 2.84900;100.031; 2.9848e-002
 39.22167; 3.06262;100.035; 1.6377e-002
 40.72167; 3.25996;100.04; 3.7980e-002
 42.22167; 3.44447;100.047; 3.2039e-002
 43.72167; 3.61925;100.051; 1.7472e-002
 45.22167; 3.78573;100.054; 8.9162e-003
 46.72167; 3.94588;100.054;-7.6181e-003
 48.22167; 4.10031;100.051;-2.3470e-002
 49.72167; 4.24959;100.047;-3.0298e-002
 51.22167; 4.39469;100.043;-1.9463e-002
 52.72167; 4.53635;100.043; 1.5207e-002
 54.22167; 4.67487;100.047; 4.6424e-002
 55.72167; 4.81041;100.054; 4.6202e-002
 57.22167; 4.94348;100.059; 2.1165e-002
 58.72167; 5.07427;100.059;-1.2836e-002
 60.22167; 5.20319;100.056;-3.2076e-002
 61.72167; 5.33076;100.052;-2.7066e-002
 63.22167; 5.45711;100.049;-1.1857e-002
 64.72167; 5.58224;100.049; 6.2750e-003
 66.22167; 5.70643;100.051; 1.9966e-002
 67.72167; 5.82970;100.054; 2.0387e-002
 69.22167; 5.95211;100.055; 6.8769e-003
 70.72167; 6.07394;100.055;-1.6730e-002
 72.22167; 6.19525;100.051;-4.1276e-002
 73.72167; 6.31596;100.046;-4.6847e-002
 75.22167; 6.43617;100.041;-2.3930e-002
 76.72167; 6.55590;100.04; 6.7306e-003
 78.22167; 6.67518;100.042; 2.2401e-002
 79.72167; 6.79423;100.045; 2.7362e-002
 81.22167; 6.91310;100.048; 2.9311e-002
 82.72167; 7.03165;100.052; 2.4197e-002
 84.22167; 7.14994;100.054; 1.3276e-002
 85.72167; 7.26804;100.055; 5.3759e-003
 87.22167; 7.38595;100.055;-2.2019e-003
 88.72167; 7.50378;100.054;-1.8811e-002
 90.22167; 7.62159;100.051;-3.5691e-002
 91.72167; 7.73928;100.046;-3.9565e-002
 93.22167; 7.85693;100.042;-3.6074e-002
 94.72167; 7.97480;100.038;-3.5919e-002
 96.22167; 8.09297;100.033;-3.8847e-002
 97.72167; 8.21133;100.028;-4.1205e-002
 99.22167; 8.32991;100.023;-4.2634e-002
100.722; 8.44868;100.018;-4.2159e-002
102.222; 8.56777;100.013;-3.9619e-002
103.722; 8.68749;100.009;-3.6443e-002
105.222; 8.80774;100.005;-2.9905e-002
106.722; 8.92829;100.002;-1.8445e-002
108.222; 9.04919;100;-9.5487e-003
109.722; 9.17062; 99.99916;-1.1926e-002
111.222; 9.29262; 99.99713;-2.1514e-002
112.722; 9.41499; 99.99414;-2.4806e-002
114.222; 9.53763; 99.99153;-1.6157e-002
115.722; 9.66087; 99.99016;-7.4838e-003
117.222; 9.78475; 99.98925;-1.0162e-002
118.722; 9.90907; 99.98703;-2.8153e-002
120.222;10.03347; 99.98206;-5.0232e-002
121.722;10.15803; 99.97520;-5.6113e-002
123.222;10.28309; 99.96842;-5.2728e-002
124.722;10.40844; 99.96167;-5.6385e-002
126.222;10.53421; 99.95425;-6.0741e-002
127.722;10.66039; 99.94657;-6.1175e-002
129.222;10.78675; 99.93864;-6.5992e-002
130.722;10.91364; 99.92945;-8.0156e-002
132.222;11.04111; 99.91815;-9.5989e-002
133.722;11.16881; 99.90546;-9.9979e-002
135.222;11.29679; 99.89280;-9.9354e-002
136.722;11.42516; 99.87945;    -0.11099
138.222;11.55377; 99.86409;    -0.12698
139.722;11.68298; 99.84700;    -0.13583
141.222;11.81274; 99.82937;    -0.13315
142.722;11.94285; 99.81279;    -0.12105
144.222;12.07328; 99.79739;    -0.12022
145.722;12.20408; 99.77974;    -0.15802
147.222;12.33541; 99.75492;    -0.21838
148.722;12.46712; 99.72401;    -0.24018
150.222;12.59922; 99.69301;    -0.22876
151.722;12.73199; 99.66242;    -0.23781
153.222;12.86546; 99.62892;    -0.26513
154.722;12.99955; 99.59144;    -0.29412
156.222;13.13414; 99.54963;    -0.32818
157.722;13.26913; 99.50294;    -0.36233
159.222;13.40469; 99.45194;    -0.38915
160.722;13.54078; 99.39724;    -0.41520
162.222;13.67755; 99.33844;    -0.44558
163.722;13.81464; 99.27487;    -0.48412
165.222;13.95181; 99.20491;    -0.54020
166.722;14.08957; 99.12534;    -0.61885
168.222;14.22791; 99.03335;    -0.71232
169.722;14.36662; 98.92823;    -0.79898
171.222;14.50561; 98.81325;    -0.84680
172.722;14.64476; 98.69396;    -0.86733
174.222;14.78434; 98.57061;    -0.90612
175.722;14.92405; 98.43962;    -0.97351
177.222;15.06372; 98.29798;    -1.05527
178.722;15.20371; 98.14486;    -1.12901
180.222;15.34386; 97.98231;    -1.19015
181.722;15.48410; 97.81052;    -1.26551
183.222;15.62486; 97.62464;    -1.38738
184.722;15.76602; 97.41690;    -1.55804
186.222;15.90728; 97.18720;    -1.67466
187.722;16.04844; 96.94762;    -1.71630
189.222;16.19004; 96.70022;    -1.78669
190.722;16.33207; 96.43969;    -1.88406
192.222;16.47426; 96.16390;    -2.00002
193.722;16.61678; 95.86992;    -2.12032
195.222;16.75967; 95.56028;    -2.21008
196.722;16.90296; 95.23682;    -2.31241
198.222;17.04657; 94.89474;    -2.45644
199.722;17.19029; 94.53067;    -2.60801
201.222;17.33437; 94.14490;    -2.74282
202.722;17.47871; 93.74061;    -2.85549
204.222;17.62300; 93.32071;    -2.96867
205.722;17.76750; 92.88230;    -3.09980
207.222;17.91209; 92.42555;    -3.21099
208.722;18.05665; 91.95511;    -3.29675
210.222;18.20154; 91.47065;    -3.39184
211.722;18.34650; 90.97327;    -3.45910
213.222;18.49134; 90.47140;    -3.45920
214.722;18.63599; 89.97418;    -3.40619
216.222;18.78042; 89.48939;    -3.29290
217.722;18.92423; 89.02937;    -3.08061
219.222;19.06721; 88.61311;    -2.70328
220.722;19.20896; 88.26972;    -2.09704
222.222;19.34870; 88.02852;    -1.34818
223.722;19.48645; 87.88951;    -0.71214
225.222;19.62260; 87.82130;    -0.33859
226.722;19.75792; 87.78834;    -0.17886
228.222;19.89349; 87.76837;    -0.12714
229.722;20.02946; 87.75285;    -0.10075
231.222;20.16620; 87.74122;-6.9113e-002
232.722;20.30429; 87.73359;-4.3605e-002
234.222;20.44363; 87.72869;-2.8796e-002
235.722;20.58387; 87.72497;-2.6376e-002
237.222;20.72481; 87.72118;-2.5861e-002
238.722;20.86675; 87.71818;-1.5223e-002
240.222;21.00985; 87.71669;-7.2135e-003
241.722;21.15377; 87.71582;-4.7333e-003
243.222;21.29785; 87.71554; 1.2912e-003
244.722;21.44284; 87.71600; 3.1413e-003
246.222;21.58890; 87.71590;-6.4701e-003
247.722;21.73534; 87.71387;-2.0715e-002
249.222;21.88224; 87.71046;-2.1925e-002
250.722;22.02940; 87.70800;-1.2403e-002
252.222;22.17699; 87.70591;-1.9844e-002
253.722;22.32500; 87.70185;-3.3134e-002
255.222;22.47324; 87.69677;-3.3791e-002
256.722;22.62158; 87.69197;-3.0197e-002
258.222;22.76984; 87.68824;-1.8384e-002
259.722;22.91830; 87.68657;-5.5119e-003
261.222;23.06698; 87.68609;-2.8753e-003
262.722;23.21592; 87.68521;-1.1129e-002
264.222;23.36479; 87.68242;-2.6312e-002
265.722;23.51353; 87.67776;-3.4240e-002
267.222;23.66247; 87.67264;-3.3276e-002
268.722;23.81141; 87.66822;-2.5158e-002
270.222;23.96028; 87.66494;-2.1324e-002
271.722;24.10946; 87.66132;-2.7019e-002
273.222;24.25883; 87.65738;-2.3295e-002
274.722;24.40823; 87.65469;-1.2126e-002
276.222;24.55749; 87.65385; 3.2123e-004
277.722;24.70654; 87.65425; 1.3583e-003
279.222;24.85557; 87.65339;-1.4668e-002
280.722;25.00467; 87.65006;-2.6931e-002
282.222;25.15407; 87.64618;-2.2328e-002
283.722;25.30376; 87.64402;-3.2707e-003
285.222;25.45333; 87.64588; 2.7860e-002
286.722;25.60286; 87.65120; 3.6851e-002
288.222;25.75240; 87.65605; 2.8707e-002
289.722;25.90205; 87.66017; 2.6261e-002
291.222;26.05150; 87.66325; 1.2201e-002
292.722;26.20110; 87.66376;-2.6517e-003
294.222;26.35077; 87.66351; 1.9963e-003
295.722;26.50020; 87.66423; 4.5679e-003
297.222;26.64987; 87.66402;-9.0399e-003
298.722;26.79943; 87.66195;-1.4059e-002
299.722;26.89905; 87.66099;-3.3798e-003

File: ExpDat_00089_CaC2O4_20_30-300_Al2O3-lids_Air-30-10_TGA.txt
#EXPORTTYPE:DATA ALL
#FILE:ExpDat_00089_CaC2O4_20_1000_Al2O3-lids_Air-30-10_TGA.imp
#FORMAT:NETZSCH5
#FTYPE:ASCII
#IDENTITY:ExpDat_00089_CaC2O4_20_1000_Al2
#DECIMAL:POINT
#SEPARATOR:SEMICOLON
#MTYPE:TG
#INSTRUMENT:IMPORTED TG
#PROJECT:
#DATE/TIME:25.09.2008 14:22
#CORR. FILE:
#TEMPCAL:---
#LABORATORY:
#OPERATOR:
#REMARK:
#SAMPLE:
#SAMPLE MASS /mg:21.348
#MATERIAL:
#REFERENCE:
#REFERENCE MASS /mg:
#TYPE OF CRUCIBLE:
#SAMPLE CRUCIBLE MASS /mg:0.000
#REFERENCE CRUCIBLE MASS /mg:
#PROTECTIVE GAS:
#FLOW RATE:
#PURGE GAS 1:
#FLOW RATE 1:
#PURGE GAS 2:
#FLOW RATE 2:
#M.RANGE /mg:0
#CORR. CODE:600
#RANGE:30oC/20.1(K/min)/1000oC
#SEGMENT:S1/1
#SEG. 1:30oC/20.1(K/min)/1000oC

##Temp./oC;Time/min;Mass/%;DTG/(%/min)
 30.18800; 0.22000;100; 1.0605e-012
 31.68800; 1.10448; 99.99102;-5.4969e-002
 33.18800; 1.39032;100.004; 1.4376e-002
 34.68800; 1.60882;100.007; 1.3099e-002
 36.18800; 1.79217;100.006;-2.8499e-002
 37.68800; 1.95204;100.003; 1.4204e-003
 39.18800; 2.09432;100.005; 2.1509e-002
 40.68800; 2.22325;100.007; 3.9233e-004
 42.18800; 2.34216;100.006;-1.2802e-002
 43.68800; 2.45334;100.003;-4.3102e-002
 45.18800; 2.55867; 99.99766;-4.3942e-002
 46.68800; 2.65875; 99.99489;-1.4730e-002
 48.18800; 2.75480; 99.99401;-9.9636e-004
 49.68800; 2.84732; 99.99521; 2.3998e-002
 51.18800; 2.93684; 99.99681; 5.2416e-003
 52.68800; 3.02374; 99.99634;-1.1558e-002
 54.18800; 3.10824; 99.99544;-8.1871e-003
 55.68800; 3.19062; 99.99483;-8.9852e-003
 57.18800; 3.27126; 99.99366;-2.0705e-002
 58.68800; 3.34998; 99.99158;-3.1096e-002
 60.18800; 3.42681; 99.98900;-3.5176e-002
 61.68800; 3.50223; 99.98646;-2.9860e-002
 63.18800; 3.57630; 99.98451;-2.5563e-002
 64.68800; 3.64926; 99.98228;-3.8016e-002
 66.18800; 3.72106; 99.97928;-4.0401e-002
 67.68800; 3.79189; 99.97707;-1.8835e-002
 69.18800; 3.86183; 99.97655; 1.1403e-003
 70.68800; 3.93095; 99.97676; 1.6427e-003
 72.18800; 3.99944; 99.97673; 1.6583e-004
 73.68800; 4.06708; 99.97720; 1.5985e-002
 75.18800; 4.13387; 99.97863; 2.2273e-002
 76.68800; 4.20009; 99.97943;-3.4467e-003
 78.18800; 4.26595; 99.97796;-3.8249e-002
 79.68800; 4.33128; 99.97525;-3.5595e-002
 81.18800; 4.39603; 99.97392;-5.7447e-003
 82.68800; 4.46023; 99.97389;-3.3983e-003
 84.18800; 4.52392; 99.97286;-3.1681e-002
 85.68800; 4.58715; 99.96998;-5.6236e-002
 87.18800; 4.64986; 99.96619;-5.9362e-002
 88.68800; 4.71213; 99.96285;-4.6907e-002
 90.18800; 4.77411; 99.96035;-3.4952e-002
 91.68800; 4.83580; 99.95846;-2.6958e-002
 93.18800; 4.89711; 99.95689;-2.6194e-002
 94.68800; 4.95817; 99.95504;-3.6233e-002
 96.18800; 5.01902; 99.95240;-4.9863e-002
 97.68800; 5.07959; 99.94920;-5.1818e-002
 99.18800; 5.13994; 99.94652;-3.3788e-002
100.688; 5.20019; 99.94525;-9.5387e-003
102.188; 5.26038; 99.94504;-1.2258e-003
103.688; 5.32048; 99.94469;-1.4325e-002
105.188; 5.38043; 99.94308;-4.0003e-002
106.688; 5.44023; 99.94009;-5.5900e-002
108.188; 5.50002; 99.93679;-5.2117e-002
109.688; 5.55981; 99.93381;-5.0199e-002
111.188; 5.61949; 99.93048;-6.4696e-002
112.688; 5.67912; 99.92592;-8.8653e-002
114.188; 5.73868; 99.92002;    -0.10634
115.688; 5.79810; 99.91380;-9.5906e-002
117.188; 5.85744; 99.90919;-5.6438e-002
118.688; 5.91683; 99.90703;-2.0033e-002
120.188; 5.97623; 99.90641;-4.4577e-003
121.688; 6.03551; 99.90624;-2.9294e-003
123.188; 6.09467; 99.90586;-1.1990e-002
124.688; 6.15374; 99.90462;-3.1931e-002
126.188; 6.21270; 99.90208;-5.2942e-002
127.688; 6.27164; 99.89858;-6.3749e-002
129.188; 6.33059; 99.89469;-6.7788e-002
130.688; 6.38949; 99.89056;-7.2740e-002
132.188; 6.44838; 99.88603;-8.3334e-002
133.688; 6.50725; 99.88051;    -0.10657
135.188; 6.56616; 99.87338;    -0.13435
136.688; 6.62510; 99.86503;    -0.14429
138.188; 6.68409; 99.85671;    -0.13640
139.688; 6.74313; 99.84869;    -0.14114
141.188; 6.80211; 99.83948;    -0.17508
142.688; 6.86108; 99.82814;    -0.20367
144.188; 6.92010; 99.81611;    -0.19764
145.688; 6.97928; 99.80505;    -0.17756
147.188; 7.03865; 99.79470;    -0.17601
148.688; 7.09794; 99.78374;    -0.19613
150.188; 7.15723; 99.77141;    -0.21937
151.688; 7.21667; 99.75789;    -0.23303
153.188; 7.27628; 99.74379;    -0.23888
154.688; 7.33608; 99.72944;    -0.24097
156.188; 7.39597; 99.71483;    -0.24891
157.688; 7.45590; 99.69936;    -0.26969
159.188; 7.51597; 99.68239;    -0.29482
160.688; 7.57623; 99.66396;    -0.31595
162.188; 7.63665; 99.64425;    -0.33737
163.688; 7.69719; 99.62301;    -0.36585
165.188; 7.75783; 99.59973;    -0.40411
166.688; 7.81858; 99.57376;    -0.45285
168.188; 7.87945; 99.54446;    -0.51180
169.688; 7.94045; 99.51121;    -0.57976
171.188; 8.00165; 99.47348;    -0.65431
172.688; 8.06302; 99.43088;    -0.73564
174.188; 8.12453; 99.38294;    -0.82358
175.688; 8.18610; 99.32964;    -0.90375
177.188; 8.24785; 99.27205;    -0.95532
178.688; 8.30973; 99.21200;    -0.98254
180.188; 8.37179; 99.15030;    -1.00730
181.688; 8.43397; 99.08670;    -1.04050
183.188; 8.49622; 99.02057;    -1.08745
184.688; 8.55856; 98.95085;    -1.15399
186.188; 8.62101; 98.87597;    -1.25367
187.688; 8.68362; 98.79264;    -1.42517
189.188; 8.74640; 98.69589;    -1.66008
190.688; 8.80943; 98.58498;    -1.83382
192.188; 8.87270; 98.46715;    -1.86887
193.688; 8.93614; 98.34893;    -1.86404
195.188; 8.99968; 98.22921;    -1.91637
196.688; 9.06333; 98.10437;    -2.01118
198.188; 9.12723; 97.97238;    -2.12192
199.688; 9.19145; 97.83219;    -2.24686
201.188; 9.25587; 97.68309;    -2.38347
202.688; 9.32044; 97.52466;    -2.52415
204.188; 9.38509; 97.35694;    -2.66521
205.688; 9.44995; 97.17920;    -2.82038
207.188; 9.51505; 96.98978;    -3.00406
208.688; 9.58023; 96.78738;    -3.20883
210.188; 9.64560; 96.57084;    -3.41273
211.688; 9.71124; 96.34078;    -3.59192
213.188; 9.77717; 96.09856;    -3.75522
214.688; 9.84330; 95.84450;    -3.93371
216.188; 9.90951; 95.57762;    -4.12888
217.688; 9.97590; 95.29671;    -4.33852
219.188;10.04255; 94.99949;    -4.59075
220.688;10.10940; 94.68308;    -4.87366
222.188;10.17632; 94.34855;    -5.11028
223.688;10.24330; 94.00045;    -5.27263
225.188;10.31052; 93.64150;    -5.40759
226.688;10.37788; 93.27241;    -5.55449
228.188;10.44535; 92.89200;    -5.72602
229.688;10.51299; 92.49852;    -5.90681
231.188;10.58081; 92.09256;    -6.05589
232.688;10.64865; 91.67811;    -6.15074
234.188;10.71646; 91.25960;    -6.18036
235.688;10.78422; 90.84196;    -6.13186
237.188;10.85205; 90.42964;    -6.01610
238.688;10.91989; 90.02652;    -5.86358
240.188;10.98756; 89.63549;    -5.68668
241.688;11.05505; 89.25895;    -5.45476
243.188;11.12231; 88.90302;    -5.09771
244.688;11.18938; 88.57781;    -4.56723
246.188;11.25620; 88.29482;    -3.87331
247.688;11.32262; 88.06483;    -3.02201
249.188;11.38868; 87.89629;    -2.07662
250.688;11.45422; 87.78944;    -1.21869
252.188;11.51923; 87.73158;    -0.61673
253.688;11.58395; 87.70375;    -0.28805
255.188;11.64857; 87.69068;    -0.14272
256.688;11.71308; 87.68327;    -0.10135
258.188;11.77767; 87.67665;    -0.10685
259.688;11.84242; 87.66957;    -0.10800
261.188;11.90731; 87.66300;-9.3243e-002
262.688;11.97243; 87.65739;-8.0771e-002
264.188;12.03777; 87.65229;-7.5718e-002
265.688;12.10339; 87.64750;-7.0043e-002
267.188;12.16927; 87.64297;-7.0428e-002
268.688;12.23538; 87.63780;-8.8667e-002
270.188;12.30179; 87.63123;    -0.10557
271.688;12.36843; 87.62436;-9.4640e-002
273.188;12.43538; 87.61918;-5.5372e-002
274.688;12.50253; 87.61729;-9.2563e-004
276.188;12.56989; 87.61863; 3.2835e-002
277.688;12.63752; 87.62055; 1.4264e-002
279.188;12.70527; 87.62004;-2.7780e-002
280.688;12.77313; 87.61751;-3.8914e-002
282.188;12.84132; 87.61528;-2.6482e-002
283.688;12.90970; 87.61359;-2.5587e-002
285.188;12.97834; 87.61180;-2.3027e-002
286.688;13.04731; 87.61070;-1.1567e-002
288.188;13.11643; 87.60924;-4.0460e-002
289.688;13.18546; 87.60483;-8.0038e-002
291.188;13.25468; 87.59957;-6.1108e-002
292.688;13.32422; 87.59679;-2.1655e-002
294.188;13.39396; 87.59594;-8.6051e-003
295.688;13.46391; 87.59501;-2.2021e-002
297.188;13.53396; 87.59265;-4.3556e-002
298.688;13.60412; 87.58949;-4.0598e-002
299.688;13.65096; 87.58792;-2.5474e-002