Folder: 5physmethods/thermodynamics/special_capacity

File: ExpDat_03881-2_bline_-30-180_10_Ar-20-70_03.04.12.csv
#EXPORTTYPE:                 ,DATA SINGLE
#FILE:                       ,03881-2_bline_-30-180_10_Ar-20-70_03.04.12.bd3
#FORMAT:                     ,NETZSCH5
#FTYPE:                      ,ASCII
#IDENTITY:                   ,03881-2
#DECIMAL:                    ,POINT
#SEPARATOR:                  ,COMMA
#MTYPE:                      ,DSC
#INSTRUMENT:                 ,NETZSCH DSC 204F1
#PROJECT:                    ,'??<R?¿?Raai
#DATE/TIME:                  ,03-Apr-12 5:24:10 PM
#CORR. FILE:                 ,
#TEMPCAL:                    ,03060_Al-pirced_10_Ar-20-70_27.01.11.td3
#SENSITIVITY:                ,Senszero.exx
#LABORATORY:                 ,'?a¿Rý?-ÿ¿???
#OPERATOR:                   ,?a?e?-?R
#REMARK:                     ,
#SAMPLE:                     ,bline
#SAMPLE MASS /mg:            ,0.0000
#MATERIAL:                   ,??a
#REFERENCE:                  ,-?a
#REFERENCE MASS /mg:         ,0.0000
#TYPE OF CRUCIBLE:           ,Pan Al, pierced lid
#SAMPLE CRUCIBLE MASS /mg:   ,0.0000
#REFERENCE CRUCIBLE MASS /mg:,0.0000
#M.RANGE /cV:                ,5000
#TAU-R:                      ,---
#CORR. CODE:                 ,000
#EXO:                        ,+1
#RANGE:                      ,-30oC....180oC/0.0....10.0K/min
#SEGMENT:                    ,S1-3/3
#SEG. 1:                     ,-30oC/00:10/-30oC
#SEG. 2:                     ,-30oC/10.0(K/min)/180oC
#SEG. 3:                     ,180oC/00:10/180oC

##Temp./oC,Time/min,DSC/uV,Sensit./(uV/mW),Segment
-29.47700, 0.00000,    -5.69552,1.00000,1
-30.51692, 0.17000,    -4.03726,1.00000,1
-30.55361, 0.34000,    -1.71108,1.00000,1
-30.52659, 0.51000,    -1.56075,1.00000,1
-30.49675, 0.68000,    -1.60545,1.00000,1
-30.49877, 0.85000,    -1.54563,1.00000,1
-30.49831, 1.02000,    -1.45538,1.00000,1
-30.43792, 1.19000,    -1.38052,1.00000,1
-30.39371, 1.36000,    -1.30225,1.00000,1
-30.36058, 1.53000,    -1.24108,1.00000,1
-30.33324, 1.70000,    -1.18672,1.00000,1
-30.30937, 1.87000,    -1.14468,1.00000,1
-30.28823, 2.04000,    -1.09774,1.00000,1
-30.26851, 2.21000,    -1.06214,1.00000,1
-30.24992, 2.38000,    -1.03086,1.00000,1
-30.23240, 2.55000,    -1.00277,1.00000,1
-30.21580, 2.72000,    -0.97877,1.00000,1
-30.20035, 2.89000,    -0.95888,1.00000,1
-30.18563, 3.06000,    -0.93699,1.00000,1
-30.17159, 3.23000,    -0.91507,1.00000,1
-30.15853, 3.40000,    -0.89999,1.00000,1
-30.14687, 3.57000,    -0.88828,1.00000,1
-30.13577, 3.74000,    -0.87276,1.00000,1
-30.12543, 3.91000,    -0.85128,1.00000,1
-30.11639, 4.08000,    -0.83807,1.00000,1
-30.10794, 4.25000,    -0.83949,1.00000,1
-30.10026, 4.42000,    -0.82638,1.00000,1
-30.09311, 4.59000,    -0.81886,1.00000,1
-30.08641, 4.76000,    -0.80652,1.00000,1
-30.08025, 4.93000,    -0.79695,1.00000,1
-30.07441, 5.10000,    -0.78862,1.00000,1
-30.06917, 5.27000,    -0.77981,1.00000,1
-30.06419, 5.44000,    -0.77074,1.00000,1
-30.06005, 5.61000,    -0.75435,1.00000,1
-30.05572, 5.78000,    -0.75036,1.00000,1
-30.05190, 5.95000,    -0.74296,1.00000,1
-30.04826, 6.12000,    -0.73666,1.00000,1
-30.04439, 6.29000,    -0.73192,1.00000,1
-30.04116, 6.46000,    -0.72775,1.00000,1
-30.03852, 6.63000,    -0.71905,1.00000,1
-30.03624, 6.80000,    -0.71269,1.00000,1
-30.03367, 6.97000,    -0.70843,1.00000,1
-30.03156, 7.14000,    -0.70558,1.00000,1
-30.02953, 7.31000,    -0.69798,1.00000,1
-30.02747, 7.48000,    -0.69337,1.00000,1
-30.02558, 7.65000,    -0.69031,1.00000,1
-30.02386, 7.82000,    -0.68506,1.00000,1
-30.02237, 7.99000,    -0.68164,1.00000,1
-30.02092, 8.16000,    -0.67917,1.00000,1
-30.01928, 8.33000,    -0.67305,1.00000,1
-30.01782, 8.50000,    -0.67472,1.00000,1
-30.01677, 8.67000,    -0.67027,1.00000,1
-30.01561, 8.84000,    -0.66797,1.00000,1
-30.01448, 9.01000,    -0.66259,1.00000,1
-30.01316, 9.18000,    -0.66613,1.00000,1
-30.01244, 9.35000,    -0.65865,1.00000,1
-30.01153, 9.52000,    -0.65963,1.00000,1
-30.01097, 9.69000,    -0.66398,1.00000,1
-30.01162, 9.86000,    -0.65242,1.00000,1
-29.99728,10.03000,    -0.66231,1.00000,2
-28.14909,10.20000,     3.75579,1.00000,2
-26.20857,10.37000,     2.43175,1.00000,2
-24.73891,10.54000,     1.87911,1.00000,2
-23.22364,10.71000,     2.09526,1.00000,2
-21.64221,10.88000,     2.28513,1.00000,2
-20.00792,11.05000,     2.42723,1.00000,2
-18.33975,11.22000,     2.53696,1.00000,2
-16.64854,11.39000,     2.59960,1.00000,2
-14.94223,11.56000,     2.66282,1.00000,2
-13.22835,11.73000,     2.71238,1.00000,2
-11.51050,11.90000,     2.74194,1.00000,2
 -9.78781,12.07000,     2.77220,1.00000,2
 -8.06487,12.24000,     2.78202,1.00000,2
 -6.34305,12.41000,     2.81692,1.00000,2
 -4.62072,12.58000,     2.83034,1.00000,2
 -2.89908,12.75000,     2.84891,1.00000,2
 -1.17798,12.92000,     2.86107,1.00000,2
  0.54057,13.09000,     2.86889,1.00000,2
  2.25753,13.26000,     2.87487,1.00000,2
  3.97431,13.43000,     2.88036,1.00000,2
  5.69041,13.60000,     2.89873,1.00000,2
  7.40525,13.77000,     2.89630,1.00000,2
  9.11782,13.94000,     2.90210,1.00000,2
 10.83178,14.11000,     2.90410,1.00000,2
 12.54397,14.28000,     2.91396,1.00000,2
 14.25532,14.45000,     2.90998,1.00000,2
 15.96438,14.62000,     2.91109,1.00000,2
 17.67336,14.79000,     2.92388,1.00000,2
 19.38270,14.96000,     2.92060,1.00000,2
 21.09003,15.13000,     2.92294,1.00000,2
 22.79837,15.30000,     2.92472,1.00000,2
 24.50521,15.47000,     2.92500,1.00000,2
 26.21059,15.64000,     2.91609,1.00000,2
 27.91726,15.81000,     2.92096,1.00000,2
 29.62215,15.98000,     2.91780,1.00000,2
 31.32737,16.15000,     2.91807,1.00000,2
 33.03248,16.32000,     2.91430,1.00000,2
 34.73628,16.49000,     2.91302,1.00000,2
 36.43846,16.66000,     2.91335,1.00000,2
 38.14218,16.83000,     2.90834,1.00000,2
 39.84361,17.00000,     2.91395,1.00000,2
 41.54495,17.17000,     2.90500,1.00000,2
 43.24943,17.34000,     2.91245,1.00000,2
 44.95267,17.51000,     2.90382,1.00000,2
 46.65471,17.68000,     2.91081,1.00000,2
 48.35682,17.85000,     2.90828,1.00000,2
 50.05892,18.02000,     2.91751,1.00000,2
 51.76158,18.19000,     2.90337,1.00000,2
 53.46351,18.36000,     2.90145,1.00000,2
 55.16530,18.53000,     2.90569,1.00000,2
 56.86741,18.70000,     2.89917,1.00000,2
 58.56943,18.87000,     2.89594,1.00000,2
 60.27137,19.04000,     2.89290,1.00000,2
 61.97281,19.21000,     2.90029,1.00000,2
 63.67386,19.38000,     2.89009,1.00000,2
 65.37522,19.55000,     2.88900,1.00000,2
 67.07708,19.72000,     2.88035,1.00000,2
 68.77707,19.89000,     2.87938,1.00000,2
 70.47866,20.06000,     2.88233,1.00000,2
 72.18071,20.23000,     2.89025,1.00000,2
 73.88182,20.40000,     2.88282,1.00000,2
 75.58245,20.57000,     2.87359,1.00000,2
 77.28260,20.74000,     2.87266,1.00000,2
 78.98346,20.91000,     2.86755,1.00000,2
 80.68521,21.08000,     2.86659,1.00000,2
 82.38570,21.25000,     2.85378,1.00000,2
 84.08669,21.42000,     2.85798,1.00000,2
 85.78656,21.59000,     2.85317,1.00000,2
 87.48739,21.76000,     2.85628,1.00000,2
 89.18719,21.93000,     2.85098,1.00000,2
 90.88800,22.10000,     2.85008,1.00000,2
 92.58908,22.27000,     2.83581,1.00000,2
 94.28945,22.44000,     2.83909,1.00000,2
 95.99112,22.61000,     2.82864,1.00000,2
 97.69137,22.78000,     2.81920,1.00000,2
 99.39234,22.95000,     2.81491,1.00000,2
101.092,23.12000,     2.82571,1.00000,2
102.794,23.29000,     2.82427,1.00000,2
104.494,23.46000,     2.82150,1.00000,2
106.195,23.63000,     2.81114,1.00000,2
107.896,23.80000,     2.80956,1.00000,2
109.597,23.97000,     2.81021,1.00000,2
111.297,24.14000,     2.80100,1.00000,2
112.998,24.31000,     2.79501,1.00000,2
114.697,24.48000,     2.78149,1.00000,2
116.399,24.65000,     2.78694,1.00000,2
118.099,24.82000,     2.78653,1.00000,2
119.799,24.99000,     2.77794,1.00000,2
121.5,25.16000,     2.77309,1.00000,2
123.201,25.33000,     2.77228,1.00000,2
124.902,25.50000,     2.75896,1.00000,2
126.602,25.67000,     2.75765,1.00000,2
128.304,25.84000,     2.75822,1.00000,2
130.003,26.01000,     2.75261,1.00000,2
131.703,26.18000,     2.74460,1.00000,2
133.403,26.35000,     2.73807,1.00000,2
135.103,26.52000,     2.74096,1.00000,2
136.803,26.69000,     2.72959,1.00000,2
138.503,26.86000,     2.72799,1.00000,2
140.204,27.03000,     2.72144,1.00000,2
141.905,27.20000,     2.71634,1.00000,2
143.606,27.37000,     2.70708,1.00000,2
145.306,27.54000,     2.70557,1.00000,2
147.006,27.71000,     2.70462,1.00000,2
148.706,27.88000,     2.69436,1.00000,2
150.407,28.05000,     2.69439,1.00000,2
152.108,28.22000,     2.68165,1.00000,2
153.807,28.39000,     2.68436,1.00000,2
155.507,28.56000,     2.68165,1.00000,2
157.21,28.73000,     2.67640,1.00000,2
158.91,28.90000,     2.67006,1.00000,2
160.61,29.07000,     2.66248,1.00000,2
162.311,29.24000,     2.65719,1.00000,2
164.01,29.41000,     2.64984,1.00000,2
165.711,29.58000,     2.64025,1.00000,2
167.412,29.75000,     2.63343,1.00000,2
169.112,29.92000,     2.63283,1.00000,2
170.812,30.09000,     2.62713,1.00000,2
172.514,30.26000,     2.61238,1.00000,2
174.213,30.43000,     2.61600,1.00000,2
175.913,30.60000,     2.60658,1.00000,2
177.614,30.77000,     2.59826,1.00000,2
179.315,30.94000,     2.59075,1.00000,2
180.51,31.11000,     1.96904,1.00000,3
180.522,31.28000,    -0.12771,1.00000,3
180.467,31.45000, 3.0007e-002,1.00000,3
180.421,31.62000,     0.12619,1.00000,3
180.384,31.79000,     0.13479,1.00000,3
180.38,31.96000,     0.12448,1.00000,3
180.325,32.13000,     0.11985,1.00000,3
180.289,32.30000,     0.11764,1.00000,3
180.263,32.47000,     0.10736,1.00000,3
180.244,32.64000, 9.9415e-002,1.00000,3
180.229,32.81000, 9.6397e-002,1.00000,3
180.215,32.98000, 8.7462e-002,1.00000,3
180.203,33.15000, 8.2938e-002,1.00000,3
180.192,33.32000, 7.7859e-002,1.00000,3
180.181,33.49000, 7.3746e-002,1.00000,3
180.17,33.66000, 7.6312e-002,1.00000,3
180.16,33.83000, 7.2263e-002,1.00000,3
180.149,34.00000, 6.6370e-002,1.00000,3
180.14,34.17000, 6.1262e-002,1.00000,3
180.13,34.34000, 6.1401e-002,1.00000,3
180.121,34.51000, 5.8955e-002,1.00000,3
180.113,34.68000, 5.4973e-002,1.00000,3
180.105,34.85000, 5.3946e-002,1.00000,3
180.097,35.02000, 4.8262e-002,1.00000,3
180.091,35.19000, 4.7604e-002,1.00000,3
180.084,35.36000, 4.6559e-002,1.00000,3
180.078,35.53000, 4.8175e-002,1.00000,3
180.072,35.70000, 4.7478e-002,1.00000,3
180.067,35.87000, 4.1118e-002,1.00000,3
180.062,36.04000, 3.6876e-002,1.00000,3
180.058,36.21000, 3.5169e-002,1.00000,3
180.054,36.38000, 3.7502e-002,1.00000,3
180.05,36.55000, 3.8155e-002,1.00000,3
180.046,36.72000, 3.2711e-002,1.00000,3
180.043,36.89000, 2.9247e-002,1.00000,3
180.04,37.06000, 2.6840e-002,1.00000,3
180.037,37.23000, 3.0604e-002,1.00000,3
180.035,37.40000, 2.2820e-002,1.00000,3
180.032,37.57000, 2.0450e-002,1.00000,3
180.03,37.74000, 2.2652e-002,1.00000,3
180.028,37.91000, 1.9216e-002,1.00000,3
180.027,38.08000, 1.6363e-002,1.00000,3
180.025,38.25000, 1.3299e-002,1.00000,3
180.024,38.42000, 1.8463e-002,1.00000,3
180.023,38.59000, 1.6127e-002,1.00000,3
180.022,38.76000, 1.6863e-002,1.00000,3
180.021,38.93000, 1.4473e-002,1.00000,3
180.02,39.10000, 1.2155e-002,1.00000,3
180.019,39.27000, 1.1520e-002,1.00000,3
180.018,39.44000, 1.1685e-002,1.00000,3
180.017,39.61000, 1.1348e-002,1.00000,3
180.017,39.78000, 1.0086e-002,1.00000,3
180.016,39.95000, 4.9149e-003,1.00000,3
180.016,40.12000, 5.5345e-003,1.00000,3
180.015,40.29000, 8.1136e-004,1.00000,3
180.014,40.46000, 5.0411e-003,1.00000,3
180.014,40.63000, 2.3618e-003,1.00000,3
180.013,40.80000, 3.8440e-003,1.00000,3
180.013,40.91000, 1.4332e-003,1.00000,3